USUBJID,AEDECOD,AETERM,AESER,AESEV,AESTDTC,AEENDTC,ARM,SAFFL
SUBJ001,HEADACHE,Headache,N,Mild,2024-01-02,2024-01-03,Placebo,Y
SUBJ002,NAUSEA,Nausea,Y,Moderate,2024-01-05,2024-01-07,Active,Y
SUBJ003,DIZZINESS,Dizziness,N,Mild,2024-01-08,,Active,Y
SUBJ004,HEADACHE,Headache,N,Severe,2024-01-09,2024-01-10,Placebo,Y
